File: gnuplot_csv/ferrocene_uvvis.csv
UV-Vis Spectrum of Solution of Ferrocene in anhydrous Acetone
wavelength,absorbance
800,-0.0036907
799.7,-0.00365835
799.4,-0.00365083
799.1,-0.0036556
798.8,-0.00368074
798.5,-0.00368139
798.2,-0.00367686
797.9,-0.00365119
797.6,-0.0036833
797.3,-0.00371327
797,-0.00366969
796.7,-0.00369888
796.4,-0.0036987
796.1,-0.00368891
795.8,-0.00367638
795.5,-0.00369405
795.2,-0.00371655
794.9,-0.00364725
794.6,-0.00367924
794.3,-0.00366557
794,-0.00364277
793.7,-0.00365566
793.4,-0.00365728
793.1,-0.00363292
792.8,-0.00363417
792.5,-0.00364922
792.2,-0.00370867
791.9,-0.00368987
791.6,-0.00366098
791.3,-0.00362271
791,-0.0036177
790.7,-0.0036491
790.4,-0.00364301
790.1,-0.00363793
789.8,-0.00366217
789.5,-0.00367817
789.2,-0.00364575
788.9,-0.00363596
788.6,-0.00361806
788.3,-0.00362838
788,-0.00364313
787.7,-0.00363131
787.4,-0.00360683
787.1,-0.00364086
786.8,-0.00362617
786.5,-0.00362462
786.2,-0.00359651
785.9,-0.00359131
785.6,-0.00357293
785.3,-0.00362886
785,-0.00356547
784.7,-0.00358684
784.4,-0.00357406
784.1,-0.00355979
783.8,-0.00355872
783.5,-0.00355114
783.2,-0.00357078
782.9,-0.00359806
782.6,-0.00354278
782.3,-0.00357663
782,-0.00359203
781.7,-0.0036011
781.4,-0.00360928
781.1,-0.00361871
780.8,-0.00362438
780.5,-0.00363608
780.2,-0.00364396
779.9,-0.00367327
779.6,-0.00365751
779.3,-0.00361376
779,-0.00366742
778.7,-0.00363435
778.4,-0.00368062
778.1,-0.00369643
777.8,-0.0036331
777.5,-0.00366062
777.2,-0.00369208
776.9,-0.00367799
776.6,-0.00363125
776.3,-0.00368133
776,-0.00367381
775.7,-0.00366044
775.4,-0.00367435
775.1,-0.00369154
774.8,-0.00368151
774.5,-0.00366844
774.2,-0.00371613
773.9,-0.00369721
773.6,-0.00367817
773.3,-0.00367715
773,-0.00364814
772.7,-0.0036633
772.4,-0.00367471
772.1,-0.00370855
771.8,-0.00367924
771.5,-0.00369255
771.2,-0.00373112
770.9,-0.00370616
770.6,-0.00369476
770.3,-0.00370611
770,-0.00372216
769.7,-0.00369506
769.4,-0.00369632
769.1,-0.00371088
768.8,-0.00370396
768.5,-0.00370664
768.2,-0.00366498
767.9,-0.00367077
767.6,-0.00369488
767.3,-0.00363728
767,-0.00366492
766.7,-0.00370294
766.4,-0.00367023
766.1,-0.00368288
765.8,-0.00367041
765.5,-0.00365166
765.2,-0.00365363
764.9,-0.00363411
764.6,-0.00364158
764.3,-0.00362486
764,-0.00359603
763.7,-0.00361913
763.4,-0.00362337
763.1,-0.00360015
762.8,-0.00362253
762.5,-0.00362701
762.2,-0.00358982
761.9,-0.00355317
761.6,-0.00356797
761.3,-0.00361149
761,-0.00356863
760.7,-0.00358134
760.4,-0.00355663
760.1,-0.00357794
759.8,-0.00358361
759.5,-0.00354225
759.2,-0.00355735
758.9,-0.00359269
758.6,-0.00359173
758.3,-0.0035429
758,-0.00355997
757.7,-0.0035814
757.4,-0.00357926
757.1,-0.00357746
756.8,-0.00356869
756.5,-0.00356409
756.2,-0.00355508
755.9,-0.00351735
755.6,-0.00355084
755.3,-0.00354099
755,-0.00353448
754.7,-0.00353663
754.4,-0.00358367
754.1,-0.00353544
753.8,-0.00351825
753.5,-0.00355991
753.2,-0.00355454
752.9,-0.00354678
752.6,-0.00355412
752.3,-0.00353675
752,-0.00350207
751.7,-0.00353496
751.4,-0.00355526
751.1,-0.00355048
750.8,-0.0035232
750.5,-0.00352517
750.2,-0.00350207
749.9,-0.00353114
749.6,-0.00351085
749.3,-0.00350804
749,-0.00352046
748.7,-0.00353156
748.4,-0.00354427
748.1,-0.00348852
747.8,-0.0035118
747.5,-0.0035712
747.2,-0.00356069
746.9,-0.00353872
746.6,-0.00353986
746.3,-0.00354613
746,-0.00351491
745.7,-0.00354851
745.4,-0.00355263
745.1,-0.00355329
744.8,-0.00356684
744.5,-0.00355412
744.2,-0.00354201
743.9,-0.00354213
743.6,-0.00357072
743.3,-0.00354654
743,-0.00355812
742.7,-0.00355985
742.4,-0.00355938
742.1,-0.00355794
741.8,-0.00357293
741.5,-0.00351407
741.2,-0.00354959
740.9,-0.00355078
740.6,-0.00354183
740.3,-0.00355532
740,-0.00358636
739.7,-0.00356272
739.4,-0.00357269
739.1,-0.00357585
738.8,-0.00357932
738.5,-0.00355323
738.2,-0.00354666
737.9,-0.00354678
737.6,-0.00355442
737.3,-0.00357675
737,-0.00359012
736.7,-0.00356732
736.4,-0.00358248
736.1,-0.00355496
735.8,-0.0035164
735.5,-0.00350141
735.2,-0.00351383
734.9,-0.00355872
734.6,-0.00355168
734.3,-0.00358134
734,-0.00358445
733.7,-0.00356899
733.4,-0.00356738
733.1,-0.00359669
732.8,-0.00358463
732.5,-0.00353842
732.2,-0.00352344
731.9,-0.00350911
731.6,-0.00345945
731.3,-0.00352822
731,-0.00345157
730.7,-0.00344375
730.4,-0.00344584
730.1,-0.00341157
729.8,-0.0034059
729.5,-0.00340596
729.2,-0.0033286
728.9,-0.0033708
728.6,-0.00338322
728.3,-0.00339564
728,-0.00335355
727.7,-0.0033606
727.4,-0.00330144
727.1,-0.00329875
726.8,-0.00337677
726.5,-0.0033837
726.2,-0.00340674
725.9,-0.0034185
725.6,-0.00338418
725.3,-0.00343575
725,-0.00343372
724.7,-0.00339319
724.4,-0.00339731
724.1,-0.00342154
723.8,-0.00341916
723.5,-0.00341056
723.2,-0.00336483
722.9,-0.00332359
722.6,-0.00329475
722.3,-0.00330562
722,-0.00334543
721.7,-0.00332233
721.4,-0.0032732
721.1,-0.00333409
720.8,-0.0032978
720.5,-0.0033372
720.2,-0.00332197
719.9,-0.00328896
719.6,-0.00329595
719.3,-0.00326515
719,-0.00327362
718.7,-0.00328037
718.4,-0.00327111
718.1,-0.00324097
717.8,-0.00325601
717.5,-0.00325882
717.2,-0.00325446
716.9,-0.00327547
716.6,-0.0032116
716.3,-0.00321721
716,-0.00323082
715.7,-0.00328484
715.4,-0.00324939
715.1,-0.00324545
714.8,-0.00321339
714.5,-0.00322372
714.2,-0.00320223
713.9,-0.00320712
713.6,-0.00321029
713.3,-0.00319041
713,-0.00319906
712.7,-0.003203
712.4,-0.00318856
712.1,-0.00321679
711.8,-0.00318766
711.5,-0.00317011
711.2,-0.00314188
710.9,-0.00315871
710.6,-0.00315137
710.3,-0.00315811
710,-0.00314343
709.7,-0.00310164
709.4,-0.00312857
709.1,-0.0030937
708.8,-0.00310916
708.5,-0.00311633
708.2,-0.00307597
707.9,-0.00303831
707.6,-0.00307436
707.3,-0.00305741
707,-0.00307239
706.7,-0.00304087
706.4,-0.00304607
706.1,-0.00303759
705.8,-0.00303574
705.5,-0.00302458
705.2,-0.00300392
704.9,-0.00298542
704.6,-0.00299008
704.3,-0.00296023
704,-0.00296017
703.7,-0.00293623
703.4,-0.00295533
703.1,-0.00291588
702.8,-0.00290662
702.5,-0.00291223
702.2,-0.00292877
701.9,-0.00291564
701.6,-0.00288143
701.3,-0.002836
701,-0.00287057
700.7,-0.00285618
700.4,-0.00284818
700.1,-0.00281732
699.8,-0.00283135
699.5,-0.00283612
699.2,-0.00285696
698.9,-0.00281326
698.6,-0.00279362
698.3,-0.00281959
698,-0.00279613
697.7,-0.00275607
697.4,-0.00276694
697.1,-0.00277279
696.8,-0.00271315
696.5,-0.00274533
696.2,-0.00274873
695.9,-0.0027387
695.6,-0.00274605
695.3,-0.0027627
695,-0.00271471
694.7,-0.00269184
694.4,-0.00267716
694.1,-0.00260923
693.8,-0.00262749
693.5,-0.00266343
693.2,-0.00266862
692.9,-0.00262558
692.6,-0.00261102
692.3,-0.0025881
692,-0.00259221
691.7,-0.00261991
691.4,-0.00259168
691.1,-0.00257031
690.8,-0.00255461
690.5,-0.00250625
690.2,-0.00252631
689.9,-0.00257347
689.6,-0.00254374
689.3,-0.00250279
689,-0.00248841
688.7,-0.00249199
688.4,-0.00252613
688.1,-0.0025238
687.8,-0.0025004
687.5,-0.0025047
687.2,-0.00248769
686.9,-0.00248357
686.6,-0.00244035
686.3,-0.00245671
686,-0.00244376
685.7,-0.00245343
685.4,-0.00245187
685.1,-0.00241683
684.8,-0.00241051
684.5,-0.00239516
684.2,-0.00240597
683.9,-0.00242871
683.6,-0.00243426
683.3,-0.00242561
683,-0.00240782
682.7,-0.00239439
682.4,-0.00239057
682.1,-0.00234544
681.8,-0.00235541
681.5,-0.00228688
681.2,-0.00233111
680.9,-0.00235087
680.6,-0.00233392
680.3,-0.00232729
680,-0.00233338
679.7,-0.00230897
679.4,-0.00229798
679.1,-0.00229416
678.8,-0.00229559
678.5,-0.00224903
678.2,-0.00226646
677.9,-0.0022239
677.6,-0.00224665
677.3,-0.00221996
677,-0.00219155
676.7,-0.00221369
676.4,-0.00220516
676.1,-0.00220367
675.8,-0.0021663
675.5,-0.00217018
675.2,-0.00213758
674.9,-0.00213299
674.6,-0.00210129
674.3,-0.00208553
674,-0.00210183
673.7,-0.00207043
673.4,-0.00208744
673.1,-0.00206416
672.8,-0.00206762
672.5,-0.00205151
672.2,-0.00203795
671.9,-0.00206619
671.6,-0.00205037
671.3,-0.00206028
671,-0.00203861
670.7,-0.00200011
670.4,-0.00198363
670.1,-0.001997
669.8,-0.00202106
669.5,-0.00198351
669.2,-0.00200554
668.9,-0.00201103
668.6,-0.00198984
668.3,-0.00197253
668,-0.00194716
667.7,-0.00195492
667.4,-0.00195743
667.1,-0.00197068
666.8,-0.00197277
666.5,-0.00195683
666.2,-0.00193325
665.9,-0.00192448
665.6,-0.00196668
665.3,-0.00193009
665,-0.00194973
664.7,-0.00192448
664.4,-0.00191469
664.1,-0.00193671
663.8,-0.00193092
663.5,-0.00195367
663.2,-0.0019151
662.9,-0.00191355
662.6,-0.0018763
662.3,-0.00189218
662,-0.00187374
661.7,-0.00186926
661.4,-0.00184413
661.1,-0.00185153
660.8,-0.00185505
660.5,-0.00182133
660.2,-0.00186562
659.9,-0.0018387
659.6,-0.00184126
659.3,-0.00183667
659,-0.00184037
658.7,-0.00183416
658.4,-0.00186538
658.1,-0.00181243
657.8,-0.00181542
657.5,-0.00180133
657.2,-0.0018215
656.9,-0.00181912
656.6,-0.001807
656.3,-0.00176641
656,-0.00177088
655.7,-0.00183971
655.4,-0.00182192
655.1,-0.0018067
654.8,-0.0017953
654.5,-0.00179506
654.2,-0.00181243
653.9,-0.00179046
653.6,-0.00171955
653.3,-0.00173728
653,-0.00173059
652.7,-0.00173334
652.4,-0.00171143
652.1,-0.00174492
651.8,-0.00176432
651.5,-0.00180413
651.2,-0.00175721
650.9,-0.00173799
650.6,-0.00174319
650.3,-0.00172677
650,-0.00169662
649.7,-0.00175357
649.4,-0.00171459
649.1,-0.00171716
648.8,-0.00172498
648.5,-0.00172504
648.2,-0.00170385
647.9,-0.00171238
647.6,-0.00168851
647.3,-0.00160816
647,-0.00157401
646.7,-0.0015961
646.4,-0.00161693
646.1,-0.00159037
645.8,-0.00160105
645.5,-0.0016186
645.2,-0.00157151
644.9,-0.0015065
644.6,-0.00151169
644.3,-0.00151259
644,-0.00149193
643.7,-0.00151002
643.4,-0.00148179
643.1,-0.00151175
642.8,-0.00146376
642.5,-0.00144358
642.2,-0.00146597
641.9,-0.00144298
641.6,-0.00143337
641.3,-0.00142717
641,-0.00140866
640.7,-0.00138442
640.4,-0.00138269
640.1,-0.00142687
639.8,-0.00139123
639.5,-0.00136843
639.2,-0.00132246
638.9,-0.00134891
638.6,-0.001355
638.3,-0.00131888
638,-0.00134932
637.7,-0.0013227
637.4,-0.00129082
637.1,-0.00127805
636.8,-0.00126498
636.5,-0.00127853
636.2,-0.001295
635.9,-0.00126044
635.6,-0.00119693
635.3,-0.00119155
635,-0.00123507
634.7,-0.00121889
634.4,-0.00124235
634.1,-0.00119591
633.8,-0.00121907
633.5,-0.00118881
633.2,-0.0011638
632.9,-0.00112446
632.6,-0.00112786
632.3,-0.00111258
632,-0.00109533
631.7,-0.00109163
631.4,-0.00109282
631.1,-0.00110201
630.8,-0.00108404
630.5,-0.00111813
630.2,-0.00105294
629.9,-0.0010154
629.6,-0.00102501
629.3,-0.0010179
629,-0.00100352
628.7,-0.00102572
628.4,-0.00106709
628.1,-0.00103157
627.8,-0.00103312
627.5,-0.00103766
627.2,-0.00103462
626.9,-0.000999398
626.6,-0.00100561
626.3,-0.00100674
626,-0.00102023
625.7,-0.00104387
625.4,-0.000972177
625.1,-0.000902932
624.8,-0.000939167
624.5,-0.0009132
624.2,-0.000920184
623.9,-0.000905798
623.6,-0.000923825
623.3,-0.00085649
623,-0.00084676
622.7,-0.000890098
622.4,-0.000879293
622.1,-0.000873324
621.8,-0.000884308
621.5,-0.000807243
621.2,-0.000800736
620.9,-0.000869683
620.6,-0.000842044
620.3,-0.000797453
620,-0.000781276
619.7,-0.000761278
619.4,-0.000746832
619.1,-0.000749757
618.8,-0.000754055
618.5,-0.000694719
618.2,-0.000687138
617.9,-0.000661112
617.6,-0.000662007
617.3,-0.000659321
617,-0.000654665
616.7,-0.000652217
616.4,-0.000621952
616.1,-0.000619326
615.8,-0.000650426
615.5,-0.000648695
615.2,-0.000629354
614.9,-0.000577719
614.6,-0.000566616
614.3,-0.000570496
614,-0.000565661
613.7,-0.000540768
613.4,-0.000504713
613.1,-0.00050919
612.8,-0.00052686
612.5,-0.000477911
612.2,-0.00048973
611.9,-0.000472956
611.6,-0.000421559
611.3,-0.00043511
611,-0.000414098
610.7,-0.000390339
610.4,-0.000413739
610.1,-0.000408486
609.8,-0.00039016
609.5,-0.000371775
609.2,-0.000380729
608.9,-0.000383952
608.6,-0.000378162
608.3,-0.000365029
608,-0.000352314
607.7,-0.000387295
607.4,-0.000321333
607.1,-0.000289874
606.8,-0.000322706
606.5,-0.000311066
606.2,-0.000274951
605.9,-0.00024779
605.6,-0.000249402
605.3,-0.000241104
605,-0.000252506
604.7,-0.000266295
604.4,-0.000258535
604.1,-0.000225285
603.8,-0.00025358
603.5,-0.000238478
603.2,-0.000156637
602.9,-0.000134431
602.6,-0.000156458
602.3,-0.00010739
602,-0.000129655
601.7,-0.000135446
601.4,-9.16304E-05
601.1,-4.88297E-05
600.8,-9.15707E-05
600.5,-9.12125E-05
600.2,-3.707E-05
599.9,-3.43838E-05
599.6,-1.00286E-05
599.3,2.36388E-05
599,5.7366E-05
598.7,2.44746E-06
598.4,-9.84952E-06
598.1,6.09476E-05
597.8,4.7994E-05
597.5,4.42333E-05
597.2,7.92737E-05
596.9,0.000131984
596.6,7.59308E-05
596.3,7.07971E-05
596,9.15707E-05
595.7,0.00016392
595.4,0.000160577
595.1,0.00015228
594.8,0.000146071
594.5,0.000171023
594.2,0.000191379
593.9,0.000190006
593.6,0.000184037
593.3,0.000146728
593,0.000201467
592.7,0.000265758
592.4,0.000303305
592.1,0.000295665
591.8,0.000286591
591.5,0.000363119
591.2,0.00033942
590.9,0.000371655
590.6,0.000373744
590.3,0.000396667
590,0.000360731
589.7,0.00036294
589.4,0.000392727
589.1,0.000394637
588.8,0.000443467
588.5,0.000438811
588.2,0.000484238
587.9,0.000490924
587.6,0.000528591
587.3,0.00051898
587,0.000546738
586.7,0.000554498
586.4,0.000588524
586.1,0.000583808
585.8,0.00059903
585.5,0.000626608
585.2,0.000671558
584.9,0.000732983
584.6,0.000714001
584.3,0.000742534
584,0.000762293
583.7,0.000765934
583.4,0.000820913
583.1,0.000827956
582.8,0.000906872
582.5,0.000891949
582.2,0.000881442
581.9,0.000868787
581.6,0.000913021
581.3,0.000937256
581,0.00101617
580.7,0.00103796
580.4,0.00104548
580.1,0.00103432
579.8,0.00104381
579.5,0.00108691
579.2,0.00110804
578.9,0.00113699
578.6,0.00113126
578.3,0.00116618
578,0.0012599
577.7,0.00123907
577.4,0.00127399
577.1,0.00127202
576.8,0.00129393
576.5,0.00132169
576.2,0.00139433
575.9,0.00137917
575.6,0.00144967
575.3,0.00145242
575,0.00144812
574.7,0.00150005
574.4,0.00154005
574.1,0.00156082
573.8,0.00154948
573.5,0.00163341
573.2,0.00167895
572.9,0.0017174
572.6,0.00181822
572.3,0.00187409
572,0.00184365
571.7,0.00188687
571.4,0.00189415
571.1,0.00199378
570.8,0.002049
570.5,0.00206923
570.2,0.00211908
569.9,0.00217889
569.6,0.00222629
569.3,0.00222504
569,0.00229631
568.7,0.00237576
568.4,0.00242382
568.1,0.00244005
567.8,0.00250118
567.5,0.00257502
567.2,0.00260576
566.9,0.00271387
566.6,0.00265728
566.3,0.00276377
566,0.00285397
565.7,0.00291546
565.4,0.00292901
565.1,0.00297843
564.8,0.00306099
564.5,0.00315262
564.2,0.0032079
563.9,0.00325553
563.6,0.00334627
563.3,0.00343647
563,0.00347921
562.7,0.00356905
562.4,0.00366492
562.1,0.00370628
561.8,0.0037726
561.5,0.00393312
561.2,0.00400368
560.9,0.00406188
560.6,0.0041008
560.3,0.00418545
560,0.00424502
559.7,0.00442751
559.4,0.00446458
559.1,0.00452153
558.8,0.00459125
558.5,0.00475284
558.2,0.00492249
557.9,0.00496732
557.6,0.00508325
557.3,0.00513238
557,0.00529815
556.7,0.00540189
556.4,0.00549066
556.1,0.00564246
555.8,0.0057554
555.5,0.00585515
555.2,0.00597048
554.9,0.00612843
554.6,0.00626023
554.3,0.00642887
554,0.00650528
553.7,0.00668973
553.4,0.00687037
553.1,0.00694236
552.8,0.00706682
552.5,0.00723856
552.2,0.00734076
551.9,0.00753088
551.6,0.00772202
551.3,0.00787538
551,0.00806502
550.7,0.00833496
550.4,0.00847608
550.1,0.00865217
549.8,0.00885072
549.5,0.0090532
549.2,0.00928678
548.9,0.00940157
548.6,0.00961862
548.3,0.00983973
548,0.0100574
547.7,0.0102685
547.4,0.0104942
547.1,0.0107375
546.8,0.0109035
546.5,0.0112371
546.2,0.0115053
545.9,0.0117044
545.6,0.0119077
545.3,0.0121669
545,0.0124445
544.7,0.0127153
544.4,0.0129573
544.1,0.013247
543.8,0.0134784
543.5,0.0137901
543.2,0.0140769
542.9,0.0144062
542.6,0.0147512
542.3,0.0150482
542,0.015375
541.7,0.0157003
541.4,0.0160097
541.1,0.0163461
540.8,0.0166768
540.5,0.0170338
540.2,0.0173956
539.9,0.0177749
539.6,0.0181669
539.3,0.0184972
539,0.0188722
538.7,0.0192877
538.4,0.0197161
538.1,0.0201374
537.8,0.020537
537.5,0.020937
537.2,0.0213666
536.9,0.0218355
536.6,0.0222865
536.3,0.0227232
536,0.0232458
535.7,0.0236369
535.4,0.0241205
535.1,0.024659
534.8,0.0250882
534.5,0.0256351
534.2,0.0261436
533.9,0.0266578
533.6,0.0272144
533.3,0.0277477
533,0.0282861
532.7,0.0289106
532.4,0.0294082
532.1,0.0300329
531.8,0.0306138
531.5,0.0312324
531.2,0.0318919
530.9,0.0324618
530.6,0.0331088
530.3,0.0338023
530,0.0344923
529.7,0.0351692
529.4,0.035889
529.1,0.0365896
528.8,0.0373229
528.5,0.0380086
528.2,0.0387676
527.9,0.0395712
527.6,0.0403633
527.3,0.041138
527,0.041893
526.7,0.0427249
526.4,0.0435087
526.1,0.0442953
525.8,0.0452144
525.5,0.046104
525.2,0.046969
524.9,0.0478293
524.6,0.0487416
524.3,0.0496486
524,0.050576
523.7,0.0515874
523.4,0.0524822
523.1,0.0535058
522.8,0.0544579
522.5,0.0555171
522.2,0.0565232
521.9,0.0575384
521.6,0.0585744
521.3,0.0596578
521,0.0606385
520.7,0.0617467
520.4,0.0628189
520.1,0.0639622
519.8,0.0650933
519.5,0.0662892
519.2,0.0674273
518.9,0.068662
518.6,0.0698351
518.3,0.0709856
518,0.0721688
517.7,0.0735084
517.4,0.0747636
517.1,0.075983
516.8,0.0773083
516.5,0.0786725
516.2,0.0799988
515.9,0.0813428
515.6,0.082706
515.3,0.0840297
515,0.0854398
514.7,0.0869114
514.4,0.0882756
514.1,0.0896312
513.8,0.0911585
513.5,0.0926347
513.2,0.0941689
512.9,0.0956817
512.6,0.0972446
512.3,0.0988287
512,0.1004
511.7,0.102078
511.4,0.103705
511.1,0.105299
510.8,0.106985
510.5,0.108592
510.2,0.110347
509.9,0.112047
509.6,0.113756
509.3,0.115487
509,0.117202
508.7,0.118949
508.4,0.120738
508.1,0.122558
507.8,0.124381
507.5,0.126199
507.2,0.12805
506.9,0.12984
506.6,0.131755
506.3,0.133681
506,0.135558
505.7,0.137472
505.4,0.139423
505.1,0.141407
504.8,0.143331
504.5,0.145334
504.2,0.147364
503.9,0.149327
503.6,0.151471
503.3,0.153571
503,0.155632
502.7,0.157647
502.4,0.159741
502.1,0.161965
501.8,0.164096
501.5,0.166242
501.2,0.16841
500.9,0.170582
500.6,0.172839
500.3,0.17515
500,0.178592
499.7,0.180824
499.4,0.18302
499.1,0.18523
498.8,0.187509
498.5,0.189728
498.2,0.192056
497.9,0.194379
497.6,0.196607
497.3,0.198996
497,0.201365
496.7,0.203693
496.4,0.206007
496.1,0.208447
495.8,0.210815
495.5,0.213229
495.2,0.215639
494.9,0.217978
494.6,0.220373
494.3,0.222774
494,0.225303
493.7,0.227787
493.4,0.230259
493.1,0.232605
492.8,0.235171
492.5,0.237579
492.2,0.240056
491.9,0.242611
491.6,0.245045
491.3,0.247565
491,0.250042
490.7,0.25259
490.4,0.255099
490.1,0.257595
489.8,0.260101
489.5,0.262652
489.2,0.265162
488.9,0.267634
488.6,0.270176
488.3,0.272678
488,0.275238
487.7,0.277796
487.4,0.280326
487.1,0.28276
486.8,0.285257
486.5,0.28786
486.2,0.290401
485.9,0.292961
485.6,0.295449
485.3,0.297966
485,0.300477
484.7,0.303021
484.4,0.305506
484.1,0.308064
483.8,0.31067
483.5,0.313185
483.2,0.315692
482.9,0.318162
482.6,0.320703
482.3,0.323204
482,0.325639
481.7,0.328116
481.4,0.330642
481.1,0.33316
480.8,0.335705
480.5,0.338134
480.2,0.340548
479.9,0.343046
479.6,0.345482
479.3,0.347905
479,0.35034
478.7,0.352746
478.4,0.35513
478.1,0.357544
477.8,0.359854
477.5,0.362192
477.2,0.364525
476.9,0.366922
476.6,0.36925
476.3,0.371639
476,0.373949
475.7,0.376247
475.4,0.378597
475.1,0.380876
474.8,0.383154
474.5,0.385391
474.2,0.387623
473.9,0.389886
473.6,0.392056
473.3,0.394212
473,0.39645
472.7,0.398586
472.4,0.400728
472.1,0.402864
471.8,0.404939
471.5,0.407025
471.2,0.409157
470.9,0.411205
470.6,0.413232
470.3,0.415268
470,0.41726
469.7,0.419207
469.4,0.421166
469.1,0.423152
468.8,0.425097
468.5,0.427
468.2,0.428793
467.9,0.430648
467.6,0.432491
467.3,0.434369
467,0.436146
466.7,0.438018
466.4,0.439739
466.1,0.441451
465.8,0.443205
465.5,0.444936
465.2,0.446615
464.9,0.448269
464.6,0.44981
464.3,0.451458
464,0.453085
463.7,0.454563
463.4,0.456084
463.1,0.457677
462.8,0.459173
462.5,0.460587
462.2,0.462157
461.9,0.46359
461.6,0.464933
461.3,0.466317
461,0.467679
460.7,0.468953
460.4,0.470332
460.1,0.471732
459.8,0.47296
459.5,0.474132
459.2,0.475401
458.9,0.47667
458.6,0.477752
458.3,0.479004
458,0.480233
457.7,0.481417
457.4,0.482433
457.1,0.483633
456.8,0.484634
456.5,0.485705
456.2,0.486666
455.9,0.487742
455.6,0.488806
455.3,0.489742
455,0.490688
454.7,0.491612
454.4,0.492623
454.1,0.493542
453.8,0.494353
453.5,0.495145
453.2,0.496039
452.9,0.496842
452.6,0.497648
452.3,0.498351
452,0.499058
451.7,0.499779
451.4,0.500482
451.1,0.501095
450.8,0.501747
450.5,0.502492
450.2,0.503051
449.9,0.503593
449.6,0.504248
449.3,0.504727
449,0.505228
448.7,0.505768
448.4,0.506237
448.1,0.50664
447.8,0.507107
447.5,0.507624
447.2,0.508067
446.9,0.508423
446.6,0.508661
446.3,0.509119
446,0.50943
445.7,0.509735
445.4,0.510061
445.1,0.510399
444.8,0.510619
444.5,0.510904
444.2,0.511146
443.9,0.511382
443.6,0.511575
443.3,0.51186
443,0.511888
442.7,0.512108
442.4,0.512325
442.1,0.512307
441.8,0.512532
441.5,0.512632
441.2,0.51261
440.9,0.51267
440.6,0.512634
440.3,0.512714
440,0.512692
439.7,0.512737
439.4,0.51273
439.1,0.512657
438.8,0.512567
438.5,0.51261
438.2,0.512405
437.9,0.51228
437.6,0.512272
437.3,0.512073
437,0.511906
436.7,0.511713
436.4,0.511507
436.1,0.511269
435.8,0.511
435.5,0.510758
435.2,0.510382
434.9,0.510238
434.6,0.509952
434.3,0.509583
434,0.509236
433.7,0.508778
433.4,0.508475
433.1,0.508133
432.8,0.507689
432.5,0.507211
432.2,0.506713
431.9,0.506237
431.6,0.50571
431.3,0.505372
431,0.504867
430.7,0.504279
430.4,0.503694
430.1,0.503089
429.8,0.502567
429.5,0.501977
429.2,0.501295
428.9,0.500651
428.6,0.499952
428.3,0.499246
428,0.498471
427.7,0.497896
427.4,0.496874
427.1,0.496186
426.8,0.495422
426.5,0.49453
426.2,0.493776
425.9,0.492955
425.6,0.492113
425.3,0.491085
425,0.490114
424.7,0.489208
424.4,0.488205
424.1,0.487231
423.8,0.486154
423.5,0.485042
423.2,0.484236
422.9,0.483181
422.6,0.482109
422.3,0.480847
422,0.479561
421.7,0.478359
421.4,0.477277
421.1,0.475969
420.8,0.474754
420.5,0.473495
420.2,0.472244
419.9,0.470933
419.6,0.46953
419.3,0.468264
419,0.466882
418.7,0.465387
418.4,0.463995
418.1,0.462608
417.8,0.461033
417.5,0.45955
417.2,0.458162
416.9,0.456373
416.6,0.454796
416.3,0.453286
416,0.451613
415.7,0.449956
415.4,0.448434
415.1,0.446585
414.8,0.444775
414.5,0.443144
414.2,0.441258
413.9,0.439474
413.6,0.437765
413.3,0.435903
413,0.434123
412.7,0.432216
412.4,0.430354
412.1,0.428383
411.8,0.426564
411.5,0.424601
411.2,0.422392
410.9,0.420484
410.6,0.418418
410.3,0.41618
410,0.414011
409.7,0.411942
409.4,0.409543
409.1,0.407468
408.8,0.405207
408.5,0.402874
408.2,0.400725
407.9,0.398461
407.6,0.396131
407.3,0.393811
407,0.391331
406.7,0.388917
406.4,0.38662
406.1,0.384342
405.8,0.382111
405.5,0.37955
405.2,0.376844
404.9,0.374324
404.6,0.371705
404.3,0.36941
404,0.366886
403.7,0.364208
403.4,0.36158
403.1,0.359017
402.8,0.356616
402.5,0.35413
402.2,0.351167
401.9,0.348542
401.6,0.346051
401.3,0.343298
401,0.340953
400.7,0.337963
400.4,0.335226
400.1,0.332566
400,0.331651